"66771982.SPC"
WL/nm,Abs
700.00,-0.001
699.00,-0.001
698.00,-0.001
697.00,-0.001
696.00,-0.000
695.00,-0.000
694.00,-0.000
693.00,0.000
692.00,0.000
691.00,0.000
690.00,0.001
689.00,0.001
688.00,0.001
687.00,0.001
686.00,0.002
685.00,0.002
684.00,0.002
683.00,0.002
682.00,0.003
681.00,0.003
680.00,0.004
679.00,0.004
678.00,0.005
677.00,0.005
676.00,0.006
675.00,0.007
674.00,0.008
673.00,0.009
672.00,0.009
671.00,0.010
670.00,0.012
669.00,0.013
668.00,0.014
667.00,0.016
666.00,0.017
665.00,0.019
664.00,0.021
663.00,0.023
662.00,0.025
661.00,0.028
660.00,0.030
659.00,0.033
658.00,0.036
657.00,0.040
656.00,0.044
655.00,0.048
654.00,0.053
653.00,0.058
652.00,0.063
651.00,0.070
650.00,0.076
649.00,0.084
648.00,0.092
647.00,0.101
646.00,0.111
645.00,0.121
644.00,0.132
643.00,0.144
642.00,0.157
641.00,0.170
640.00,0.185
639.00,0.202
638.00,0.220
637.00,0.239
636.00,0.260
635.00,0.283
634.00,0.307
633.00,0.334
632.00,0.363
631.00,0.394
630.00,0.428
629.00,0.464
628.00,0.503
627.00,0.545
626.00,0.589
625.00,0.637
624.00,0.686
623.00,0.738
622.00,0.792
621.00,0.851
620.00,0.912
619.00,0.973
618.00,1.038
617.00,1.107
616.00,1.176
615.00,1.247
614.00,1.324
613.00,1.404
612.00,1.483
611.00,1.563
610.00,1.645
609.00,1.726
608.00,1.806
607.00,1.891
606.00,1.973
605.00,2.051
604.00,2.127
603.00,2.201
602.00,2.272
601.00,2.336
600.00,2.393
599.00,2.445
598.00,2.492
597.00,2.530
596.00,2.564
595.00,2.592
594.00,2.614
593.00,2.629
592.00,2.641
591.00,2.646
590.00,2.648
589.00,2.646
588.00,2.638
587.00,2.627
586.00,2.611
585.00,2.593
584.00,2.571
583.00,2.547
582.00,2.522
581.00,2.493
580.00,2.462
579.00,2.431
578.00,2.400
577.00,2.368
576.00,2.337
575.00,2.305
574.00,2.275
573.00,2.247
572.00,2.218
571.00,2.191
570.00,2.167
569.00,2.143
568.00,2.121
567.00,2.101
566.00,2.082
565.00,2.064
564.00,2.048
563.00,2.033
562.00,2.020
561.00,2.008
560.00,1.997
559.00,1.987
558.00,1.977
557.00,1.967
556.00,1.958
555.00,1.949
554.00,1.940
553.00,1.932
552.00,1.923
551.00,1.913
550.00,1.903
549.00,1.892
548.00,1.881
547.00,1.869
546.00,1.856
545.00,1.842
544.00,1.828
543.00,1.812
542.00,1.796
541.00,1.777
540.00,1.758
539.00,1.737
538.00,1.715
537.00,1.691
536.00,1.671
535.00,1.650
534.00,1.622
533.00,1.592
532.00,1.562
531.00,1.531
530.00,1.498
529.00,1.464
528.00,1.432
527.00,1.398
526.00,1.364
525.00,1.330
524.00,1.296
523.00,1.262
522.00,1.227
521.00,1.194
520.00,1.160
519.00,1.127
518.00,1.095
517.00,1.063
516.00,1.031
515.00,0.999
514.00,0.968
513.00,0.938
512.00,0.908
511.00,0.880
510.00,0.852
509.00,0.823
508.00,0.795
507.00,0.769
506.00,0.743
505.00,0.719
504.00,0.695
503.00,0.672
502.00,0.650
501.00,0.628
500.00,0.607
499.00,0.587
498.00,0.567
497.00,0.548
496.00,0.530
495.00,0.512
494.00,0.496
493.00,0.479
492.00,0.463
491.00,0.448
490.00,0.432
489.00,0.417
488.00,0.402
487.00,0.387
486.00,0.372
485.00,0.358
484.00,0.345
483.00,0.332
482.00,0.319
481.00,0.307
480.00,0.294
479.00,0.282
478.00,0.271
477.00,0.260
476.00,0.250
475.00,0.240
474.00,0.231
473.00,0.222
472.00,0.213
471.00,0.205
470.00,0.197
469.00,0.189
468.00,0.182
467.00,0.174
466.00,0.167
465.00,0.161
464.00,0.154
463.00,0.148
462.00,0.142
461.00,0.136
460.00,0.130
459.00,0.125
458.00,0.119
457.00,0.114
456.00,0.109
455.00,0.104
454.00,0.100
453.00,0.096
452.00,0.091
451.00,0.087
450.00,0.084
449.00,0.080
448.00,0.077
447.00,0.073
446.00,0.070
445.00,0.067
444.00,0.064
443.00,0.062
442.00,0.059
441.00,0.057
440.00,0.054
439.00,0.052
438.00,0.050
437.00,0.048
436.00,0.046
435.00,0.044
434.00,0.043
433.00,0.041
432.00,0.040
431.00,0.039
430.00,0.038
429.00,0.037
428.00,0.036
427.00,0.035
426.00,0.034
425.00,0.034
424.00,0.033
423.00,0.033
422.00,0.033
421.00,0.033
420.00,0.033
419.00,0.033
418.00,0.033
417.00,0.033
416.00,0.033
415.00,0.034
414.00,0.034
413.00,0.034
412.00,0.035
411.00,0.036
410.00,0.036
409.00,0.037
408.00,0.038
407.00,0.038
406.00,0.039
405.00,0.040
404.00,0.041
403.00,0.042
402.00,0.043
401.00,0.043
400.00,0.044
399.00,0.045
398.00,0.046
397.00,0.047
396.00,0.048
395.00,0.048
394.00,0.049
393.00,0.050
392.00,0.051
391.00,0.052
390.00,0.053
389.00,0.054
388.00,0.055
387.00,0.056
386.00,0.058
385.00,0.060
384.00,0.061
383.00,0.064
382.00,0.066
381.00,0.068
380.00,0.070
379.00,0.072
378.00,0.074
377.00,0.076
376.00,0.078
375.00,0.079
374.00,0.079
373.00,0.080
372.00,0.080
371.00,0.080
370.00,0.079
369.00,0.078
368.00,0.078
367.00,0.077
366.00,0.076
365.00,0.076
364.00,0.076
363.00,0.076
362.00,0.077
361.00,0.077
360.00,0.078
359.00,0.079
358.00,0.080
357.00,0.081
356.00,0.081
355.00,0.081
354.00,0.081
353.00,0.080
352.00,0.078
351.00,0.076
350.00,0.074
349.00,0.072
348.00,0.069
347.00,0.067
346.00,0.065
345.00,0.064
344.00,0.063
343.00,0.062
342.00,0.062
341.00,0.063
340.00,0.063
339.00,0.065
338.00,0.068
337.00,0.071
336.00,0.075
335.00,0.080
334.00,0.084
333.00,0.089
332.00,0.093
331.00,0.097
330.00,0.100
329.00,0.103
328.00,0.107
327.00,0.111
326.00,0.117
325.00,0.124
324.00,0.133
323.00,0.144
322.00,0.157
321.00,0.172
320.00,0.190
319.00,0.210
318.00,0.231
317.00,0.256
316.00,0.282
315.00,0.311
314.00,0.342
313.00,0.377
312.00,0.414
311.00,0.452
310.00,0.489
309.00,0.523
308.00,0.553
307.00,0.579
306.00,0.598
305.00,0.610
304.00,0.618
303.00,0.619
302.00,0.615
301.00,0.607
300.00,0.594
299.00,0.579
298.00,0.561
297.00,0.542
296.00,0.520
295.00,0.499
294.00,0.475
293.00,0.452
292.00,0.429
291.00,0.407
290.00,0.386
289.00,0.366
288.00,0.347
287.00,0.330
286.00,0.313
285.00,0.298
284.00,0.284
283.00,0.271
282.00,0.259
281.00,0.248
280.00,0.238
279.00,0.229
278.00,0.222
277.00,0.216
276.00,0.212
275.00,0.209
274.00,0.208
273.00,0.208
272.00,0.209
271.00,0.211
270.00,0.214
269.00,0.218
268.00,0.222
267.00,0.228
266.00,0.235
265.00,0.243
264.00,0.252
263.00,0.262
262.00,0.275
261.00,0.288
260.00,0.304
259.00,0.321
258.00,0.341
257.00,0.363
256.00,0.387
255.00,0.412
254.00,0.437
253.00,0.461
252.00,0.481
251.00,0.496
250.00,0.504
249.00,0.503
248.00,0.496
247.00,0.484
246.00,0.466
245.00,0.446
244.00,0.424
243.00,0.400
242.00,0.377
241.00,0.356
240.00,0.336
239.00,0.317
238.00,0.301
237.00,0.288
236.00,0.277
235.00,0.269
234.00,0.264
233.00,0.262
232.00,0.263
231.00,0.266
230.00,0.271
229.00,0.278
228.00,0.288
227.00,0.302
226.00,0.321
225.00,0.345
224.00,0.377
223.00,0.416
222.00,0.467
221.00,0.527
220.00,0.598
219.00,0.683
218.00,0.772
217.00,0.867
216.00,0.958
215.00,1.045
214.00,1.125
213.00,1.191
212.00,1.250
211.00,1.295
210.00,1.327
209.00,1.348
208.00,1.354
207.00,1.347
206.00,1.333
205.00,1.308
204.00,1.277
203.00,1.241
202.00,1.199
201.00,1.155
200.00,1.117
